#
# This scattering intensity file was created by WAXSiS
#
# The calculated I(q) was interpolated to the experimental q-values
#
# q[A-1]        I(q)              sigma(q)
0.0413845	2.71221E+06	37235.9							
0.0437161	2.67113E+06	36442.9							
0.0460476	2.62856E+06	35647.1							
0.0483791	2.58415E+06	34848							
0.0507106	2.53887E+06	34052.9							
0.0530422	2.49157E+06	33266.9							
0.0553737	2.44389E+06	32485.8							
0.0577052	2.39416E+06	31730.2							
0.0600367	2.34440E+06	30975.4							
0.0623683	2.29270E+06	30264.7							
0.0646998	2.24101E+06	29553.9
0.0670313	2.18800E+06	28891.8
0.0693628	2.13481E+06	28236.9
0.0716943	2.08086E+06	27627.6
0.0740259	2.02663E+06	27035.6
0.0763574	1.97206E+06	26481.9
0.0786889	1.91725E+06	25955.8
0.0810204	1.86238E+06	25458.1
0.083352	1.80742E+06	24996.9
0.0856835	1.75255E+06	24553.5
0.088015	1.69787E+06	24153
0.0903465	1.64329E+06	23758.8
0.0926781	1.58927E+06	23400.9
0.0950096	1.53525E+06	23043.1
0.0973411	1.48226E+06	22712.8
0.0996726	1.42926E+06	22382.4
0.102004	1.37742E+06	22079.8
0.104336	1.32577E+06	21781.6
0.106667	1.27529E+06	21500
0.108999	1.22527E+06	21224.9
0.11133	1.17633E+06	20958.1
0.113662	1.12820E+06	20697.8
0.115993	1.08097E+06	20440.8
0.118325	1.03494E+06	20188.4
0.120656	9.89554E+05	19936.9
0.122988	9.45798E+05	19687.6
0.125319	9.02375E+05	19438.2
0.127651	8.61032E+05	19188.5
0.129982	8.19689E+05	18938.8
0.132314	7.80837E+05	18686.4
0.134645	7.42002E+05	18434.1
0.136977	7.05351E+05	18178.4
0.139309	6.69090E+05	17922.2
0.14164	6.34661E+05	17662.7
0.143972	6.01003E+05	17401.9
0.146303	5.68801E+05	17138
0.148635	5.37748E+05	16871.9
0.150966	5.07763E+05	16603.3
0.153298	4.79286E+05	16331.3
0.155629	4.51491E+05	16057.4
0.157961	4.25539E+05	15778.6
0.160292	3.99895E+05	15498.8
0.162624	3.76391E+05	15211.9
0.164955	3.52889E+05	14925.1
0.167287	3.31698E+05	14624.3
0.169618	3.10552E+05	14323.3
0.17195	2.91288E+05	14013.1
0.174281	2.72391E+05	13701.1
0.176613	2.54968E+05	13383.1
0.178944	2.38200E+05	13062.4
0.181276	2.22528E+05	12736.3
0.183608	2.07760E+05	12405.6
0.185939	1.93743E+05	12070.4
0.188271	1.80840E+05	11728.5
0.190602	1.68382E+05	11383.3
0.192934	1.57202E+05	11028.4
0.195265	1.46203E+05	10671.8
0.197597	1.36606E+05	10301.5
0.199928	1.27010E+05	9931.26
0.20226	1.18811E+05	9542.57
0.204591	1.10657E+05	9153.31
0.206923	1.03577E+05	8744.1
0.209254	9.67266E+04	8330.64
0.211586	9.06707E+04	7896.01
0.213917	8.49884E+04	7451.41
0.216249	7.98630E+04	7026.65
0.21858	7.52201E+04	6619.06
0.220912	7.09353E+04	6223.91
0.223243	6.72079E+04	5848.1
0.225575	6.36777E+04	5483.7
0.227906	6.07497E+04	5154.13
0.230238	5.78922E+04	4832.34
0.23257	5.56545E+04	4579.14
0.234901	5.34169E+04	4325.94
0.237233	5.17440E+04	4163.06
0.239564	5.00962E+04	4004.18
0.241896	4.88523E+04	3912.34
0.244227	4.77015E+04	3835.91
0.246559	4.68267E+04	3791.67
0.24889	4.60887E+04	3763.38
0.251222	4.55273E+04	3743.21
0.253553	4.51262E+04	3730.42
0.255885	4.48271E+04	3716.8
0.258216	4.46949E+04	3701.83
0.260548	4.46118E+04	3685.22
0.262879	4.46885E+04	3663.25
0.265211	4.47792E+04	3640.76
0.267542	4.50120E+04	3613.16
0.269874	4.52447E+04	3585.56
0.272205	4.55818E+04	3555.45
0.274537	4.59250E+04	3525.2
0.276868	4.63252E+04	3494.87
0.2792	4.67397E+04	3464.53
0.281532	4.71792E+04	3435.21
0.283863	4.76318E+04	3406.42
0.286195	4.80900E+04	3378.82
0.288526	4.85534E+04	3352.35
0.290857	4.90125E+04	3326.78
0.293189	4.94641E+04	3302.76
0.295521	4.99091E+04	3279.24
0.297852	5.03310E+04	3257.4
0.300184	5.07495E+04	3235.7
0.302515	5.11277E+04	3215.57
0.304847	5.15060E+04	3195.43
0.307178	5.18338E+04	3176.3
0.30951	5.21581E+04	3157.23
0.311841	5.24339E+04	3138.46
0.314173	5.26968E+04	3119.78
0.316504	5.29172E+04	3100.88
0.318836	5.31141E+04	3081.86
0.321167	5.32769E+04	3062.32
0.323499	5.34054E+04	3042.26
0.32583	5.35095E+04	3021.58
0.328162	5.35691E+04	2999.8
0.330493	5.36145E+04	2977.53
0.332825	5.36063E+04	2953.42
0.335157	5.35938E+04	2929.12
0.337488	5.35201E+04	2902.2
0.339819	5.34464E+04	2875.28
0.342151	5.33154E+04	2845.48
0.344483	5.31795E+04	2815.43
0.346814	5.29986E+04	2782.86
0.349146	5.28047E+04	2749.58
0.351477	5.25771E+04	2714.3
0.353809	5.23299E+04	2677.87
0.35614	5.20592E+04	2640.07
0.358472	5.17638E+04	2600.82
0.360803	5.14537E+04	2560.77
0.363135	5.11155E+04	2519.19
0.365466	5.07699E+04	2477.28
0.367798	5.03946E+04	2434
0.370129	5.00174E+04	2390.71
0.372461	4.96105E+04	2347.03
0.374792	4.92035E+04	2303.36
0.377124	4.87730E+04	2261.16
0.379455	4.83401E+04	2219.1
0.381787	4.78916E+04	2177.62
0.384118	4.74384E+04	2136.3
0.38645	4.69758E+04	2095.75
0.388781	4.65077E+04	2055.66
0.391113	4.60349E+04	2016.35
0.393444	4.55570E+04	1977.88
0.395776	4.50776E+04	1940.05
0.398108	4.45951E+04	1903.51
0.400439	4.41127E+04	1867.37
0.402771	4.36305E+04	1832.94
0.405102	4.31485E+04	1798.62
0.407434	4.26711E+04	1766.41
0.409765	4.21938E+04	1734.2
0.412097	4.17248E+04	1703.98
0.414428	4.12567E+04	1673.99
0.41676	4.07986E+04	1645.57
0.419091	4.03437E+04	1617.67
0.421423	3.98993E+04	1590.94
0.423754	3.94615E+04	1564.94
0.426086	3.90333E+04	1539.71
0.428417	3.86160E+04	1515.37
0.430749	3.82064E+04	1491.46
0.43308	3.78127E+04	1468.49
0.435412	3.74237E+04	1445.7
0.437744	3.70564E+04	1423.81
0.440075	3.66901E+04	1401.94
0.442406	3.63516E+04	1380.91
0.444738	3.60131E+04	1359.87
0.44707	3.57020E+04	1339.45
0.449401	3.53942E+04	1319.11
0.451733	3.51105E+04	1299.23
0.454064	3.48351E+04	1279.5
0.456396	3.45799E+04	1260.17
0.458727	3.43381E+04	1241.09
0.461059	3.41119E+04	1222.36
0.46339	3.39043E+04	1204.05
0.465722	3.37075E+04	1186.02
0.468053	3.35345E+04	1168.66
0.470385	3.33672E+04	1151.49
0.472716	3.32288E+04	1135.31
0.475048	3.30910E+04	1119.16
0.477379	3.29864E+04	1104.43
0.479711	3.28819E+04	1089.71
0.482042	3.28062E+04	1076.49
0.484374	3.27346E+04	1063.49
0.486706	3.26862E+04	1051.94
0.489037	3.26463E+04	1040.91
0.491369	3.26239E+04	1031.19
0.4937	3.26140E+04	1022.39
0.496032	3.26163E+04	1014.65
0.498363	3.26342E+04	1008.24
