#
# This scattering intensity file was created by WAXSiS
#
# The calculated I(q) was interpolated to the experimental q-values
#
# q[A-1]        I(q)              sigma(q)
0.0413845	2.63003E+06	33570.6							
0.0437161	2.59279E+06	32923							
0.0460476	2.55413E+06	32273.5							
0.0483791	2.51373E+06	31621.6							
0.0507106	2.47249E+06	30973							
0.0530422	2.42930E+06	30332							
0.0553737	2.38573E+06	29694.9							
0.0577052	2.34015E+06	29077.9							
0.0600367	2.29453E+06	28461.5							
0.0623683	2.24693E+06	27879.1							
0.0646998	2.19933E+06	27296.6
0.0670313	2.15034E+06	26750.7
0.0693628	2.10114E+06	26210.3
0.0716943	2.05106E+06	25703.5
0.0740259	2.00066E+06	25209.3
0.0763574	1.94979E+06	24742.7
0.0786889	1.89858E+06	24296
0.0810204	1.84720E+06	23869.3
0.083352	1.79558E+06	23468.3
0.0856835	1.74395E+06	23079.5
0.088015	1.69230E+06	22720
0.0903465	1.64070E+06	22365.8
0.0926781	1.58938E+06	22041.9
0.0950096	1.53806E+06	21718.1
0.0973411	1.48741E+06	21422.8
0.0996726	1.43676E+06	21127.5
0.102004	1.38695E+06	20839.4
0.104336	1.33728E+06	20552.5
0.106667	1.28852E+06	20267.2
0.108999	1.24012E+06	19982.4
0.11133	1.19259E+06	19700.9
0.113662	1.14571E+06	19421.8
0.115993	1.09959E+06	19143
0.118325	1.05447E+06	18864.7
0.120656	1.00990E+06	18585.6
0.122988	9.66728E+05	18304.5
0.125319	9.23848E+05	18022.9
0.127651	8.82786E+05	17737.1
0.129982	8.41724E+05	17451.4
0.132314	8.02882E+05	17160.2
0.134645	7.64056E+05	16869
0.136977	7.27209E+05	16573.3
0.139309	6.90716E+05	16276.9
0.14164	6.55910E+05	15977.4
0.143972	6.21812E+05	15676.7
0.146303	5.89076E+05	15374.2
0.148635	5.57413E+05	15070.3
0.150966	5.26760E+05	14765.8
0.153298	4.97533E+05	14460.3
0.155629	4.68960E+05	14154.5
0.157961	4.42153E+05	13848.3
0.160292	4.15644E+05	13542
0.162624	3.91213E+05	13235.8
0.164955	3.66783E+05	12929.6
0.167287	3.44621E+05	12623.6
0.169618	3.22503E+05	12317.7
0.17195	3.02251E+05	12011.7
0.174281	2.82363E+05	11705.7
0.176613	2.63953E+05	11395.3
0.178944	2.46200E+05	11082.9
0.181276	2.29555E+05	10770.9
0.183608	2.13825E+05	10459.4
0.185939	1.98863E+05	10148.3
0.188271	1.85040E+05	9837.58
0.190602	1.71675E+05	9526.85
0.192934	1.59629E+05	9216.01
0.195265	1.47772E+05	8905
0.197597	1.37374E+05	8592.65
0.199928	1.26976E+05	8280.29
0.20226	1.18045E+05	7964.55
0.204591	1.09161E+05	7648.72
0.206923	1.01415E+05	7327.72
0.209254	9.39103E+04	7005.61
0.211586	8.72549E+04	6676.58
0.213917	8.09985E+04	6344.28
0.216249	7.53415E+04	6003.9
0.21858	7.02042E+04	5656.52
0.220912	6.54559E+04	5326.79
0.223243	6.13129E+04	5024.52
0.225575	5.73862E+04	4728.45
0.227906	5.41193E+04	4451.24
0.230238	5.09304E+04	4177.93
0.23257	4.84272E+04	3938.87
0.234901	4.59242E+04	3699.82
0.237233	4.40521E+04	3518.51
0.239564	4.22080E+04	3339.76
0.241896	4.08206E+04	3223.07
0.244227	3.95383E+04	3120.67
0.246559	3.85718E+04	3064.88
0.24889	3.77619E+04	3032.21
0.251222	3.71568E+04	3021.03
0.253553	3.67378E+04	3029.38
0.255885	3.64393E+04	3041.5
0.258216	3.63378E+04	3059.79
0.260548	3.62954E+04	3076.13
0.262879	3.64455E+04	3086.08
0.265211	3.66130E+04	3094.79
0.267542	3.69561E+04	3091.06
0.269874	3.72991E+04	3087.33
0.272205	3.77760E+04	3072.09
0.274537	3.82606E+04	3056.19
0.276868	3.88224E+04	3033.41
0.2792	3.94035E+04	3008.93
0.281532	4.00225E+04	2981.08
0.283863	4.06612E+04	2951.48
0.286195	4.13125E+04	2920.61
0.288526	4.19757E+04	2888.55
0.290857	4.26377E+04	2856.27
0.293189	4.32975E+04	2823.6
0.295521	4.39514E+04	2791.07
0.297852	4.45845E+04	2759
0.300184	4.52140E+04	2727.03
0.302515	4.58015E+04	2696.28
0.304847	4.63890E+04	2665.52
0.307178	4.69200E+04	2636.36
0.30951	4.74470E+04	2607.3
0.311841	4.79171E+04	2579.69
0.314173	4.83720E+04	2552.47
0.316504	4.87751E+04	2526.41
0.318836	4.91497E+04	2500.99
0.321167	4.94812E+04	2476.4
0.323499	4.97699E+04	2452.64
0.32583	5.00270E+04	2429.38
0.328162	5.02268E+04	2407.04
0.330493	5.04076E+04	2384.94
0.332825	5.05177E+04	2363.73
0.335157	5.06218E+04	2342.57
0.337488	5.06434E+04	2322.15
0.339819	5.06649E+04	2301.73
0.342151	5.06074E+04	2281.71
0.344483	5.05432E+04	2261.73
0.346814	5.04157E+04	2241.79
0.349146	5.02700E+04	2221.86
0.351477	5.00761E+04	2201.77
0.353809	4.98544E+04	2181.57
0.35614	4.95986E+04	2161.1
0.358472	4.93072E+04	2140.33
0.360803	4.89943E+04	2119.3
0.363135	4.86404E+04	2097.74
0.365466	4.82756E+04	2076.01
0.367798	4.78669E+04	2053.55
0.370129	4.74556E+04	2031.04
0.372461	4.70002E+04	2007.66
0.374792	4.65447E+04	1984.28
0.377124	4.60541E+04	1960.15
0.379455	4.55601E+04	1935.94
0.381787	4.50428E+04	1911.26
0.384118	4.45183E+04	1886.43
0.38645	4.39799E+04	1861.99
0.388781	4.34332E+04	1837.78
0.391113	4.28793E+04	1814.67
0.393444	4.23178E+04	1792.77
0.395776	4.17538E+04	1771
0.398108	4.11849E+04	1749.5
0.400439	4.06158E+04	1728.13
0.402771	4.00462E+04	1707.26
0.405102	3.94769E+04	1686.43
0.407434	3.89127E+04	1666.39
0.409765	3.83486E+04	1646.34
0.412097	3.77943E+04	1627.19
0.414428	3.72412E+04	1608.14
0.41676	3.66999E+04	1589.94
0.419091	3.61625E+04	1572.02
0.421423	3.56373E+04	1554.82
0.423754	3.51198E+04	1538.09
0.426086	3.46131E+04	1521.92
0.428417	3.41189E+04	1506.39
0.430749	3.36332E+04	1491.22
0.43308	3.31651E+04	1476.83
0.435412	3.27020E+04	1462.6
0.437744	3.22622E+04	1449.2
0.440075	3.18233E+04	1435.82
0.442406	3.14133E+04	1423.23
0.444738	3.10034E+04	1410.63
0.44707	3.06208E+04	1398.52
0.449401	3.02418E+04	1386.47
0.451733	2.98862E+04	1374.65
0.454064	2.95388E+04	1362.9
0.456396	2.92104E+04	1351.19
0.458727	2.88948E+04	1339.49
0.461059	2.85937E+04	1327.71
0.46339	2.83099E+04	1315.84
0.465722	2.80359E+04	1303.86
0.468053	2.77837E+04	1291.66
0.470385	2.75366E+04	1279.39
0.472716	2.73155E+04	1266.81
0.475048	2.70950E+04	1254.21
0.477379	2.69043E+04	1241.28
0.479711	2.67135E+04	1228.35
0.482042	2.65489E+04	1215.24
0.484374	2.63878E+04	1202.11
0.486706	2.62479E+04	1189.01
0.489037	2.61158E+04	1175.92
0.491369	2.60001E+04	1163.05
0.4937	2.58960E+04	1150.33
0.496032	2.58038E+04	1137.94
0.498363	2.57266E+04	1125.95
